# wavelength (nm) photoabsorption  photodissociation  photoionisation (cm^2)
6.1000E-02,    3.80E-23,    3.80E-23,    0.00E+00
1.1200E-01,    3.70E-22,    3.70E-22,    0.00E+00
2.4400E-01,    3.00E-21,    3.00E-21,    0.00E+00
6.1500E-01,    4.60E-20,    4.60E-20,    0.00E+00
1.2570E+00,    3.40E-19,    3.40E-19,    0.00E+00
2.2640E+00,    1.90E-18,    1.90E-18,    0.00E+00
2.3610E+00,    4.90E-19,    4.90E-19,    0.00E+00
2.4620E+00,    5.40E-19,    5.40E-19,    0.00E+00
2.9130E+00,    8.20E-19,    8.20E-19,    0.00E+00
3.0380E+00,    1.50E-19,    1.50E-19,    0.00E+00
6.2090E+00,    9.00E-19,    9.00E-19,    0.00E+00
1.2170E+01,    4.10E-18,    4.10E-18,    0.00E+00
2.4860E+01,    1.50E-17,    1.50E-17,    0.00E+00
6.2580E+01,    3.90E-17,    3.90E-17,    0.00E+00
9.1500E+01,    4.50E-17,    4.50E-17,    0.00E+00
9.4000E+01,    3.00E-17,    3.00E-17,    0.00E+00
2.0000E+02,    1.25E-18,    1.25E-18,    0.00E+00
2.0500E+02,    1.85E-18,    1.85E-18,    0.00E+00
2.1000E+02,    2.95E-18,    2.95E-18,    0.00E+00
2.1500E+02,    4.25E-18,    4.25E-18,    0.00E+00
2.2000E+02,    1.77E-18,    1.77E-18,    0.00E+00
2.2500E+02,    1.40E-18,    1.40E-18,    0.00E+00
2.3000E+02,    1.04E-18,    1.04E-18,    0.00E+00
2.3500E+02,    6.80E-19,    6.80E-19,    0.00E+00
2.4000E+02,    4.20E-19,    4.20E-19,    0.00E+00
2.4500E+02,    2.80E-19,    2.80E-19,    0.00E+00
2.5000E+02,    1.80E-19,    1.80E-19,    0.00E+00
2.5500E+02,    1.10E-19,    1.10E-19,    0.00E+00
2.6000E+02,    8.00E-20,    8.00E-20,    0.00E+00
2.6500E+02,    4.00E-20,    4.00E-20,    0.00E+00
2.7000E+02,    2.00E-20,    2.00E-20,    0.00E+00
2.7500E+02,    4.00E-21,    4.00E-21,    0.00E+00
3.1100E+02,    4.00E-21,    4.00E-21,    0.00E+00
3.1200E+02,    2.00E-21,    2.00E-21,    0.00E+00
3.1300E+02,    4.20E-21,    4.20E-21,    0.00E+00
3.1400E+02,    4.60E-21,    4.60E-21,    0.00E+00
3.1500E+02,    4.20E-21,    4.20E-21,    0.00E+00
3.1600E+02,    3.00E-21,    3.00E-21,    0.00E+00
3.1700E+02,    4.60E-21,    4.60E-21,    0.00E+00
3.1800E+02,    3.60E-20,    3.60E-20,    0.00E+00
3.1900E+02,    6.10E-20,    6.10E-20,    0.00E+00
3.2000E+02,    2.10E-20,    2.10E-20,    0.00E+00
3.2100E+02,    4.27E-20,    4.27E-20,    0.00E+00
3.2200E+02,    4.01E-20,    4.01E-20,    0.00E+00
3.2300E+02,    3.93E-20,    3.93E-20,    0.00E+00
3.2400E+02,    4.01E-20,    4.01E-20,    0.00E+00
3.2500E+02,    4.04E-20,    4.04E-20,    0.00E+00
3.2600E+02,    3.13E-20,    3.13E-20,    0.00E+00
3.2700E+02,    4.12E-20,    4.12E-20,    0.00E+00
3.2800E+02,    7.55E-20,    7.55E-20,    0.00E+00
3.2900E+02,    6.64E-20,    6.64E-20,    0.00E+00
3.3000E+02,    7.29E-20,    7.29E-20,    0.00E+00
3.3100E+02,    8.70E-20,    8.70E-20,    0.00E+00
3.3200E+02,    1.38E-19,    1.38E-19,    0.00E+00
3.3300E+02,    5.91E-20,    5.91E-20,    0.00E+00
3.3400E+02,    5.91E-20,    5.91E-20,    0.00E+00
3.3500E+02,    6.45E-20,    6.45E-20,    0.00E+00
3.3600E+02,    5.91E-20,    5.91E-20,    0.00E+00
3.3700E+02,    4.58E-20,    4.58E-20,    0.00E+00
3.3800E+02,    1.91E-19,    1.91E-19,    0.00E+00
3.3900E+02,    1.63E-19,    1.63E-19,    0.00E+00
3.4000E+02,    1.05E-19,    1.05E-19,    0.00E+00
3.4100E+02,    8.70E-20,    8.70E-20,    0.00E+00
3.4200E+02,    3.35E-19,    3.35E-19,    0.00E+00
3.4300E+02,    2.01E-19,    2.01E-19,    0.00E+00
3.4400E+02,    1.02E-19,    1.02E-19,    0.00E+00
3.4500E+02,    8.54E-20,    8.54E-20,    0.00E+00
3.4600E+02,    8.32E-20,    8.32E-20,    0.00E+00
3.4700E+02,    8.20E-20,    8.20E-20,    0.00E+00
3.4800E+02,    7.49E-20,    7.49E-20,    0.00E+00
3.4900E+02,    7.13E-20,    7.13E-20,    0.00E+00
3.5000E+02,    6.83E-20,    6.83E-20,    0.00E+00
3.5100E+02,    1.74E-19,    1.74E-19,    0.00E+00
3.5200E+02,    1.14E-19,    1.14E-19,    0.00E+00
3.5300E+02,    3.71E-19,    3.71E-19,    0.00E+00
3.5400E+02,    4.96E-19,    4.96E-19,    0.00E+00
3.5500E+02,    2.46E-19,    2.46E-19,    0.00E+00
3.5600E+02,    1.19E-19,    1.19E-19,    0.00E+00
3.5700E+02,    9.35E-20,    9.35E-20,    0.00E+00
3.5800E+02,    7.78E-20,    7.78E-20,    0.00E+00
3.5900E+02,    7.29E-20,    7.29E-20,    0.00E+00
3.6000E+02,    6.83E-20,    6.83E-20,    0.00E+00
3.6100E+02,    6.90E-20,    6.90E-20,    0.00E+00
3.6200E+02,    7.32E-20,    7.32E-20,    0.00E+00
3.6300E+02,    9.00E-20,    9.00E-20,    0.00E+00
3.6400E+02,    1.21E-19,    1.21E-19,    0.00E+00
3.6500E+02,    1.33E-19,    1.33E-19,    0.00E+00
3.6600E+02,    2.13E-19,    2.13E-19,    0.00E+00
3.6700E+02,    3.52E-19,    3.52E-19,    0.00E+00
3.6800E+02,    4.50E-19,    4.50E-19,    0.00E+00
3.6900E+02,    2.93E-19,    2.93E-19,    0.00E+00
3.7000E+02,    1.19E-19,    1.19E-19,    0.00E+00
3.7100E+02,    9.46E-20,    9.46E-20,    0.00E+00
3.7200E+02,    8.85E-20,    8.85E-20,    0.00E+00
3.7300E+02,    7.44E-20,    7.44E-20,    0.00E+00
3.7400E+02,    4.77E-20,    4.77E-20,    0.00E+00
3.7500E+02,    2.70E-20,    2.70E-20,    0.00E+00
3.7600E+02,    1.90E-20,    1.90E-20,    0.00E+00
3.7700E+02,    1.50E-20,    1.50E-20,    0.00E+00
3.7800E+02,    1.90E-20,    1.90E-20,    0.00E+00
3.7900E+02,    5.80E-20,    5.80E-20,    0.00E+00
3.8000E+02,    7.78E-20,    7.78E-20,    0.00E+00
3.8100E+02,    1.14E-19,    1.14E-19,    0.00E+00
3.8200E+02,    1.40E-19,    1.40E-19,    0.00E+00
3.8300E+02,    1.72E-19,    1.72E-19,    0.00E+00
3.8400E+02,    1.99E-19,    1.99E-19,    0.00E+00
3.8500E+02,    1.90E-19,    1.90E-19,    0.00E+00
3.8600E+02,    1.19E-19,    1.19E-19,    0.00E+00
3.8700E+02,    5.65E-20,    5.65E-20,    0.00E+00
3.8800E+02,    3.20E-20,    3.20E-20,    0.00E+00
3.8900E+02,    1.90E-20,    1.90E-20,    0.00E+00
3.9000E+02,    1.20E-20,    1.20E-20,    0.00E+00
3.9100E+02,    5.00E-21,    5.00E-21,    0.00E+00
3.9400E+02,    4.00E-21,    4.00E-21,    0.00E+00
4.0000E+02,    4.00E-21,    4.00E-21,    0.00E+00
5.9100E+02,    1.00E-35,    1.00E-35,    0.00E+00